{
  "resourceType": "Bundle",
  "id": "CKDManagementExpected",
  "type": "collection",
  "entry": [
    {
      "fullUrl": "http://apply-processor/RequestGroup/CKDManagementRequestGroup",
      "resource": {
        "resourceType": "RequestGroup",
        "id": "CKDManagementRequestGroup",
        "meta": {
          "profile": [
            "http://hl7.org/fhir/uv/cpg/StructureDefinition/cpg-strategy"
          ]
        },
        "intent": "proposal",
        "status": "draft",
        "subject": {
          "reference": "Patient/Patient1"
        },
        "author": {
          "reference": "Practitioner/Practitioner1"
        },
        "encounter": {
          "reference": "Encounter/Encounter1"
        },
        "instantiatesCanonical": [
          "http://example.com/PlanDefinition/CKDManagementPlan|0.1.0"
        ],
        "action": [
          {
            "title": "CKD Education",
            "description": "CKD Education at time of diagnosis",
            "code": [
              {
                "coding": [
                  {
                    "code": "provide-counseling",
                    "system": "http://hl7.org/fhir/uv/cpg/CodeSystem/cpg-common-process",
                    "display": "Provide Counseling"
                  }
                ]
              }
            ],
            "resource": {
              "reference": "RequestGroup/InlineCKDEducationRequestGroup"
            }
          },
          {
            "title": "Follow Up Plan",
            "description": "Schedule follow up with nephrologist",
            "code": [
              {
                "coding": [
                  {
                    "code": "monitor-and-follow-up-of-patient",
                    "system": "http://hl7.org/fhir/uv/cpg/CodeSystem/cpg-common-process",
                    "display": "Monitor and Follow-up of Patient"
                  }
                ]
              }
            ],
            "resource": {
              "reference": "RequestGroup/CKDFollowUpRequestGroup"
            }
          }
        ]
      }
    },
    {
      "fullUrl": "http://example.com/RequestGroup/InlineCKDEducationRequestGroup",
      "resource": {
        "resourceType": "RequestGroup",
        "id": "InlineCKDEducationRequestGroup",
        "meta": {
          "profile": [
            "http://hl7.org/fhir/uv/cpg/StructureDefinition/cpg-strategy"
          ]
        },
        "intent": "option",
        "status": "draft",
        "subject": {
          "reference": "Patient/Patient1"
        },
        "author": {
          "reference": "Practitioner/Practitioner1"
        },
        "encounter": {
          "reference": "Encounter/Encounter1"
        },
        "instantiatesCanonical": [
          "http://example.com/PlanDefinition/CKDEducationPlan|0.1.0"
        ],
        "action": [
          {
            "title": "CKD Patient Education",
            "description": "Provide verbal and written education on disease state at time of CKD diagnosis",
            "code": [
              {
                "coding": [
                  {
                    "code": "provide-counseling",
                    "system": "http://hl7.org/fhir/uv/cpg/CodeSystem/cpg-common-process",
                    "display": "Provide Counseling"
                  }
                ]
              }
            ]
          }
        ]
      }
    },
    {
      "fullUrl": "http://example.com/RequestGroup/CKDFollowUpRequestGroup",
      "resource": {
        "resourceType": "RequestGroup",
        "id": "CKDFollowUpRequestGroup",
        "meta": {
          "profile": [
            "http://hl7.org/fhir/uv/cpg/StructureDefinition/cpg-strategy"
          ]
        },
        "intent": "option",
        "status": "draft",
        "subject": {
          "reference": "Patient/Patient1"
        },
        "author": {
          "reference": "Practitioner/Practitioner1"
        },
        "encounter": {
          "reference": "Encounter/Encounter1"
        },
        "instantiatesCanonical": [
          "http://example.com/PlanDefinition/CKDFollowUpPlan|0.1.0"
        ],
        "action": [
          {
            "title": "CKD Patient Education",
            "description": "Provide verbal and written education on disease state at time of CKD diagnosis",
            "code": [
              {
                "coding": [
                  {
                    "code": "monitor-and-follow-up-of-patient",
                    "system": "http://hl7.org/fhir/uv/cpg/CodeSystem/cpg-common-process",
                    "display": "Monitor and Follow-up of Patient"
                  }
                ]
              }
            ]
          }
        ]
      }
    }
  ]
}
