{
  "resourceType" : "Bundle",
  "id" : "CKDManagementExpected",
  "type" : "collection",
  "entry" : [{
    "fullUrl" : "http://apply-processor/RequestGroup/CKDManagementRequestGroup",
    "resource" : {
      "resourceType" : "RequestGroup",
      "id" : "CKDManagementRequestGroup",
      "instantiatesCanonical" : ["http://example.org/PlanDefinition/CKDManagementPlan|0.2.0"],
      "status" : "draft",
      "intent" : "proposal",
      "subject" : {
        "reference" : "Patient/Patient1"
      },
      "encounter" : {
        "reference" : "Encounter/Encounter1"
      },
      "author" : {
        "reference" : "Practitioner/Practitioner1"
      },
      "action" : [{
        "title" : "CKD Education",
        "description" : "CKD Education at time of diagnosis",
        "code" : [{
          "coding" : [{
            "system" : "http://hl7.org/fhir/uv/cpg/CodeSystem/cpg-common-process-cs",
            "code" : "provide-counseling",
            "display" : "Provide Counseling"
          }]
        }],
        "resource" : {
          "reference" : "RequestGroup/CKDEducationRequestGroup2"
        }
      },
      {
        "title" : "Follow Up Plan",
        "description" : "Schedule follow up with nephrologist",
        "code" : [{
          "coding" : [{
            "system" : "http://hl7.org/fhir/uv/cpg/CodeSystem/cpg-common-process-cs",
            "code" : "monitor-and-follow-up-of-patient",
            "display" : "Monitor and Follow-up of Patient"
          }]
        }],
        "resource" : {
          "reference" : "RequestGroup/CKDFollowUpRequestGroup"
        }
      }]
    }
  },
  {
    "fullUrl" : "http://apply-processor/RequestGroup/CKDEducationRequestGroup2",
    "resource" : {
      "resourceType" : "RequestGroup",
      "id" : "CKDEducationRequestGroup2",
      "instantiatesCanonical" : ["http://example.org/PlanDefinition/CKDEducationPlan|0.2.0"],
      "status" : "draft",
      "intent" : "proposal",
      "subject" : {
        "reference" : "Patient/Patient1"
      },
      "encounter" : {
        "reference" : "Encounter/Encounter1"
      },
      "author" : {
        "reference" : "Practitioner/Practitioner1"
      },
      "action" : [{
        "title" : "Recommend CKD Patient Education",
        "description" : "Recommend verbal and written education on disease state at time of CKD diagnosis",
        "code" : [{
          "coding" : [{
            "system" : "http://hl7.org/fhir/uv/cpg/CodeSystem/cpg-common-process-cs",
            "code" : "provide-counseling",
            "display" : "Provide Counseling"
          }]
        }],
        "action" : [{
          "title" : "Provide CKD Patient Education",
          "description" : "Provide verbal and written education on disease state at time of CKD diagnosis"
        }]
      }]
    }
  },
  {
    "fullUrl" : "http://apply-processor/RequestGroup/CKDFollowUpRequestGroup",
    "resource" : {
      "resourceType" : "RequestGroup",
      "id" : "CKDFollowUpRequestGroup",
      "instantiatesCanonical" : ["http://example.org/PlanDefinition/CKDFollowUpPlan|0.2.0"],
      "status" : "draft",
      "intent" : "proposal",
      "subject" : {
        "reference" : "Patient/Patient1"
      },
      "encounter" : {
        "reference" : "Encounter/Encounter1"
      },
      "author" : {
        "reference" : "Practitioner/Practitioner1"
      },
      "action" : [{
        "title" : "Recommend CKD Follow Up",
        "description" : "Recommend CKD Follow Up",
        "code" : [{
          "coding" : [{
            "system" : "http://hl7.org/fhir/uv/cpg/CodeSystem/cpg-common-process-cs",
            "code" : "monitor-and-follow-up-of-patient",
            "display" : "Monitor and Follow-up of Patient"
          }]
        }],
        "action" : [{
          "title" : "CKD Follow Up Plan",
          "description" : "Schedule follow up with a nephrologist at time of CKD diagnosis"
        }]
      }]
    }
  }]
}